File: 3_Hydrocarbons/Ring1_pahonly.asc
x, y
cm-1, Jy
wavenumber, intensity
556.212, 7.112316e+03
556.677, 7.268685e+03
557.142, 7.430313e+03
557.608, 7.597427e+03
558.075, 7.770273e+03
558.542, 7.949107e+03
559.011, 8.134203e+03
559.48, 8.325854e+03
559.95, 8.524372e+03
560.42, 8.730093e+03
560.892, 8.943378e+03
561.364, 9.164617e+03
561.837, 9.394236e+03
562.311, 9.632698e+03
562.786, 9.880513e+03
563.261, 1.013825e+04
563.738, 1.040653e+04
564.215, 1.068606e+04
564.693, 1.097764e+04
565.171, 1.128219e+04
565.651, 1.160076e+04
566.131, 1.193456e+04
566.612, 1.228504e+04
567.094, 1.265388e+04
567.577, 1.304311e+04
568.061, 1.345516e+04
568.545, 1.389295e+04
569.031, 1.436003e+04
569.517, 1.486067e+04
570.004, 1.540004e+04
570.491, 1.598424e+04
570.98, 1.662029e+04
571.469, 1.731585e+04
571.96, 1.807837e+04
572.451, 1.891327e+04
572.943, 1.982044e+04
573.436, 2.078870e+04
573.929, 2.178817e+04
574.424, 2.276376e+04
574.919, 2.363626e+04
575.415, 2.431921e+04
575.912, 2.475112e+04
576.41, 2.492503e+04
576.909, 2.489174e+04
577.409, 2.473369e+04
577.909, 2.453132e+04
578.411, 2.434256e+04
578.913, 2.419931e+04
579.416, 2.411323e+04
579.92, 2.408347e+04
580.425, 2.410284e+04
580.931, 2.416165e+04
581.438, 2.424983e+04
581.945, 2.435794e+04
582.454, 2.447755e+04
582.963, 2.460134e+04
583.473, 2.472302e+04
583.984, 2.483727e+04
584.496, 2.493964e+04
585.009, 2.502641e+04
585.523, 2.509458e+04
586.038, 2.514177e+04
586.553, 2.516618e+04
587.07, 2.516656e+04
587.587, 2.514218e+04
588.106, 2.509279e+04
588.625, 2.501859e+04
589.145, 2.492024e+04
589.666, 2.479878e+04
590.188, 2.465565e+04
590.711, 2.449265e+04
591.235, 2.431189e+04
591.76, 2.411580e+04
592.285, 2.390710e+04
592.812, 2.368877e+04
593.34, 2.346407e+04
593.868, 2.323648e+04
594.398, 2.300981e+04
594.928, 2.278811e+04
595.46, 2.257579e+04
595.992, 2.237761e+04
596.525, 2.219883e+04
597.059, 2.204524e+04
597.595, 2.192332e+04
598.131, 2.184040e+04
598.668, 2.180487e+04
599.206, 2.182640e+04
599.745, 2.191623e+04
600.285, 2.208748e+04
600.826, 2.235540e+04
601.368, 2.273766e+04
601.911, 2.325424e+04
602.455, 2.392702e+04
603, 2.477830e+04
603.546, 2.582766e+04
604.093, 2.708615e+04
604.641, 2.854635e+04
605.189, 3.016786e+04
605.739, 3.185970e+04
606.29, 3.346660e+04
606.842, 3.477303e+04
607.395, 3.554064e+04
607.949, 3.557963e+04
608.504, 3.482373e+04
609.06, 3.335978e+04
609.617, 3.138980e+04
610.175, 2.915358e+04
610.734, 2.686048e+04
611.294, 2.465688e+04
611.855, 2.262565e+04
612.417, 2.080120e+04
612.98, 1.918715e+04
613.544, 1.777034e+04
614.109, 1.653023e+04
614.675, 1.544431e+04
615.243, 1.449096e+04
615.811, 1.365075e+04
616.38, 1.290677e+04
616.951, 1.224466e+04
617.522, 1.165232e+04
618.095, 1.111965e+04
618.668, 1.063821e+04
619.243, 1.020097e+04
619.819, 9.802046e+03
620.396, 9.436509e+03
620.973, 9.100214e+03
621.552, 8.789660e+03
622.132, 8.501879e+03
622.713, 8.234343e+03
623.296, 7.984887e+03
623.879, 7.751654e+03
624.463, 7.533035e+03
625.049, 7.327640e+03
625.635, 7.134254e+03
626.223, 6.951817e+03
626.812, 6.779394e+03
627.402, 6.616164e+03
627.993, 6.461398e+03
628.585, 6.314447e+03
629.178, 6.174735e+03
629.772, 6.041743e+03
630.368, 5.915008e+03
630.965, 5.794109e+03
631.562, 5.678668e+03
632.161, 5.568342e+03
632.761, 5.462819e+03
633.362, 5.361813e+03
633.965, 5.265066e+03
634.568, 5.172338e+03
635.173, 5.083411e+03
635.778, 4.998083e+03
636.385, 4.916168e+03
636.993, 4.837496e+03
637.603, 4.761906e+03
638.213, 4.689253e+03
638.825, 4.619398e+03
639.437, 4.552215e+03
640.051, 4.487586e+03
640.666, 4.425399e+03
641.283, 4.365552e+03
641.9, 4.307947e+03
642.519, 4.252495e+03
643.139, 4.199111e+03
643.76, 4.147716e+03
644.382, 4.098235e+03
645.005, 4.050598e+03
645.63, 4.004740e+03
646.256, 3.960599e+03
646.883, 3.918117e+03
647.511, 3.877240e+03
648.141, 3.837916e+03
648.771, 3.800097e+03
649.403, 3.763739e+03
650.037, 3.728798e+03
650.671, 3.695234e+03
651.307, 3.663011e+03
651.944, 3.632093e+03
652.582, 3.602447e+03
653.221, 3.574042e+03
653.862, 3.546851e+03
654.504, 3.520846e+03
655.147, 3.496003e+03
655.791, 3.472300e+03
656.437, 3.449714e+03
657.084, 3.428229e+03
657.732, 3.407825e+03
658.382, 3.388488e+03
659.033, 3.370204e+03
659.685, 3.352961e+03
660.338, 3.336749e+03
660.993, 3.321559e+03
661.649, 3.307385e+03
662.306, 3.294223e+03
662.965, 3.282068e+03
663.625, 3.270921e+03
664.286, 3.260783e+03
664.949, 3.251656e+03
665.613, 3.243546e+03
666.278, 3.236461e+03
666.945, 3.230410e+03
667.612, 3.225408e+03
668.282, 3.221468e+03
668.952, 3.218610e+03
669.624, 3.216855e+03
670.297, 3.216228e+03
670.972, 3.216759e+03
671.648, 3.218479e+03
672.325, 3.221427e+03
673.004, 3.225645e+03
673.684, 3.231180e+03
674.366, 3.238086e+03
675.049, 3.246424e+03
675.733, 3.256260e+03
676.418, 3.267670e+03
677.105, 3.280738e+03
677.794, 3.295561e+03
678.484, 3.312242e+03
679.175, 3.330902e+03
679.867, 3.351674e+03
680.561, 3.374705e+03
681.257, 3.400165e+03
681.954, 3.428241e+03
682.652, 3.459143e+03
683.352, 3.493111e+03
684.053, 3.530410e+03
684.756, 3.571343e+03
685.46, 3.616248e+03
686.165, 3.665507e+03
686.872, 3.719550e+03
687.581, 3.778862e+03
688.29, 3.843987e+03
689.002, 3.915533e+03
689.715, 3.994183e+03
690.429, 4.080690e+03
691.145, 4.175889e+03
691.862, 4.280686e+03
692.581, 4.396053e+03
693.301, 4.523010e+03
694.023, 4.662587e+03
694.746, 4.815768e+03
695.471, 4.983406e+03
696.197, 5.166090e+03
696.925, 5.363965e+03
697.654, 5.576491e+03
698.385, 5.802135e+03
699.117, 6.038023e+03
699.851, 6.279585e+03
700.587, 6.520290e+03
701.324, 6.751583e+03
702.062, 6.963196e+03
702.802, 7.143948e+03
703.544, 7.283056e+03
704.287, 7.371767e+03
705.032, 7.404927e+03
705.779, 7.382014e+03
706.527, 7.307265e+03
707.276, 7.188864e+03
708.027, 7.037457e+03
708.78, 6.864484e+03
709.534, 6.680749e+03
710.29, 6.495477e+03
711.048, 6.315880e+03
711.807, 6.147146e+03
712.568, 5.992668e+03
713.33, 5.854400e+03
714.094, 5.733215e+03
714.86, 5.629235e+03
715.628, 5.542090e+03
716.397, 5.471122e+03
717.167, 5.415526e+03
717.94, 5.374449e+03
718.714, 5.347054e+03
719.489, 5.332556e+03
720.266, 5.330251e+03
721.046, 5.339517e+03
721.826, 5.359824e+03
722.609, 5.390722e+03
723.393, 5.431842e+03
724.179, 5.482879e+03
724.966, 5.543585e+03
725.755, 5.613748e+03
726.546, 5.693183e+03
727.339, 5.781707e+03
728.133, 5.879118e+03
728.929, 5.985174e+03
729.727, 6.099559e+03
730.527, 6.221856e+03
731.328, 6.351511e+03
732.131, 6.487802e+03
732.936, 6.629802e+03
733.743, 6.776356e+03
734.551, 6.926058e+03
735.362, 7.077255e+03
736.174, 7.228060e+03
736.988, 7.376402e+03
737.803, 7.520104e+03
738.621, 7.656990e+03
739.44, 7.785019e+03
740.261, 7.902433e+03
741.084, 8.007906e+03
741.909, 8.100668e+03
742.735, 8.180592e+03
743.564, 8.248223e+03
744.394, 8.304760e+03
745.226, 8.351965e+03
746.06, 8.392052e+03
746.896, 8.427533e+03
747.733, 8.461077e+03
748.573, 8.495371e+03
749.415, 8.533015e+03
750.258, 8.576441e+03
751.103, 8.627871e+03
751.95, 8.689298e+03
752.799, 8.762488e+03
753.65, 8.849007e+03
754.503, 8.950253e+03
755.358, 9.067488e+03
756.215, 9.201886e+03
757.074, 9.354568e+03
757.935, 9.526641e+03
758.797, 9.719236e+03
759.662, 9.933537e+03
760.529, 1.017082e+04
761.397, 1.043246e+04
762.268, 1.072000e+04
763.14, 1.103514e+04
764.015, 1.137979e+04
764.891, 1.175609e+04
765.77, 1.216644e+04
766.651, 1.261355e+04
767.533, 1.310050e+04
768.418, 1.363075e+04
769.305, 1.420822e+04
770.194, 1.483741e+04
771.084, 1.552343e+04
771.977, 1.627217e+04
772.872, 1.709045e+04
773.769, 1.798626e+04
774.668, 1.896901e+04
775.57, 2.004994e+04
776.473, 2.124266e+04
777.378, 2.256382e+04
778.286, 2.403399e+04
779.195, 2.567867e+04
780.107, 2.752925e+04
781.021, 2.962320e+04
781.937, 3.200179e+04
782.855, 3.470188e+04
783.776, 3.773463e+04
784.698, 4.104173e+04
785.623, 4.442666e+04
786.55, 4.749401e+04
787.479, 4.969565e+04
788.41, 5.057295e+04
789.344, 5.005913e+04
790.28, 4.851611e+04
791.217, 4.646114e+04
792.158, 4.429465e+04
793.1, 4.222200e+04
794.045, 4.030501e+04
794.992, 3.853428e+04
795.941, 3.687757e+04
796.892, 3.530314e+04
797.846, 3.378806e+04
798.802, 3.231913e+04
799.76, 3.089108e+04
800.721, 2.950403e+04
801.684, 2.816128e+04
802.649, 2.686747e+04
803.616, 2.562737e+04
804.586, 2.444519e+04
805.558, 2.332408e+04
806.533, 2.226607e+04
807.51, 2.127207e+04
808.489, 2.034199e+04
809.471, 1.947490e+04
810.455, 1.866920e+04
811.441, 1.792281e+04
812.43, 1.723333e+04
813.421, 1.659811e+04
814.415, 1.601444e+04
815.411, 1.547956e+04
816.41, 1.499077e+04
817.411, 1.454544e+04
818.414, 1.414107e+04
819.42, 1.377533e+04
820.429, 1.344600e+04
821.44, 1.315105e+04
822.453, 1.288863e+04
823.469, 1.265701e+04
824.487, 1.245467e+04
825.508, 1.228021e+04
826.532, 1.213242e+04
827.558, 1.201020e+04
828.586, 1.191264e+04
829.617, 1.183897e+04
830.651, 1.178857e+04
831.687, 1.176099e+04
832.726, 1.175594e+04
833.768, 1.177333e+04
834.812, 1.181322e+04
835.858, 1.187590e+04
836.908, 1.196181e+04
837.96, 1.207163e+04
839.014, 1.220623e+04
840.071, 1.236668e+04
841.131, 1.255429e+04
842.194, 1.277058e+04
843.259, 1.301733e+04
844.327, 1.329656e+04
845.398, 1.361061e+04
846.471, 1.396213e+04
847.547, 1.435415e+04
848.626, 1.479010e+04
849.708, 1.527387e+04
850.792, 1.580990e+04
851.879, 1.640323e+04
852.969, 1.705958e+04
854.062, 1.778548e+04
855.147, 1.857987e+04
856.267, 1.948583e+04
857.016, 2.014404e+04
858.093, 2.117295e+04
859.173, 2.231034e+04
859.927, 2.317279e+04
861.059, 2.458637e+04
861.816, 2.561609e+04
862.906, 2.723005e+04
863.998, 2.901941e+04
864.76, 3.037917e+04
865.82, 3.243531e+04
866.405, 3.365955e+04
866.991, 3.495272e+04
867.577, 3.631834e+04
868.165, 3.775995e+04
868.753, 3.928109e+04
869.342, 4.088523e+04
869.932, 4.257573e+04
870.523, 4.435581e+04
871.114, 4.622846e+04
871.707, 4.819638e+04
872.3, 5.026198e+04
872.894, 5.242731e+04
873.488, 5.469408e+04
874.084, 5.706370e+04
874.68, 5.953736e+04
875.277, 6.211627e+04
875.875, 6.480193e+04
876.474, 6.759658e+04
877.074, 7.050385e+04
877.674, 7.352955e+04
878.275, 7.668274e+04
878.877, 7.997700e+04
879.48, 8.343196e+04
880.084, 8.707501e+04
880.689, 9.094316e+04
881.294, 9.508479e+04
881.9, 9.956130e+04
882.507, 1.044479e+05
883.115, 1.098334e+05
883.724, 1.158174e+05
884.334, 1.225034e+05
884.944, 1.299864e+05
885.555, 1.383298e+05
886.167, 1.475303e+05
886.78, 1.574668e+05
887.394, 1.678369e+05
888.009, 1.780963e+05
888.624, 1.874326e+05
889.241, 1.948222e+05
889.858, 1.992075e+05
890.476, 1.997738e+05
891.095, 1.962176e+05
891.715, 1.888619e+05
892.335, 1.785455e+05
892.957, 1.663552e+05
893.579, 1.533468e+05
894.202, 1.403648e+05
894.827, 1.279824e+05
895.452, 1.165266e+05
896.077, 1.061391e+05
896.704, 9.683916e+04
897.332, 8.857495e+04
897.96, 8.125906e+04
898.59, 7.479086e+04
899.22, 6.906944e+04
899.851, 6.400035e+04
900.483, 5.949855e+04
901.116, 5.548930e+04
901.75, 5.190774e+04
902.385, 4.869816e+04
903.02, 4.581282e+04
903.657, 4.321098e+04
904.294, 4.085783e+04
904.932, 3.872361e+04
905.572, 3.678285e+04
906.212, 3.501369e+04
906.853, 3.339733e+04
907.495, 3.191754e+04
908.137, 3.056030e+04
908.781, 2.931346e+04
909.426, 2.816643e+04
910.071, 2.711002e+04
910.718, 2.613619e+04
911.365, 2.523793e+04
912.013, 2.440910e+04
912.663, 2.364434e+04
913.313, 2.293896e+04
913.964, 2.228887e+04
914.616, 2.169052e+04
915.269, 2.114083e+04
915.923, 2.063715e+04
916.578, 2.017726e+04
917.233, 1.975926e+04
917.89, 1.938163e+04
918.548, 1.904315e+04
919.206, 1.874291e+04
919.866, 1.848029e+04
920.526, 1.825496e+04
921.188, 1.806682e+04
921.85, 1.791607e+04
922.513, 1.780312e+04
923.178, 1.772857e+04
923.843, 1.769323e+04
924.509, 1.769801e+04
925.176, 1.774387e+04
925.844, 1.783171e+04
926.514, 1.796221e+04
927.184, 1.813563e+04
927.855, 1.835156e+04
928.527, 1.860853e+04
929.2, 1.890365e+04
929.874, 1.923204e+04
930.549, 1.958642e+04
931.224, 1.995656e+04
931.901, 2.032898e+04
932.579, 2.068694e+04
933.258, 2.101088e+04
933.938, 2.127945e+04
934.619, 2.147125e+04
935.301, 2.156696e+04
935.983, 2.155175e+04
936.667, 2.141732e+04
937.352, 2.116307e+04
938.038, 2.079621e+04
938.725, 2.033064e+04
939.413, 1.978494e+04
940.101, 1.918003e+04
940.791, 1.853692e+04
941.482, 1.787492e+04
942.174, 1.721056e+04
942.867, 1.655707e+04
943.561, 1.592432e+04
944.256, 1.531921e+04
944.952, 1.474605e+04
945.649, 1.420712e+04
946.347, 1.370318e+04
947.046, 1.323385e+04
947.746, 1.279801e+04
948.447, 1.239404e+04
949.149, 1.202004e+04
949.853, 1.167398e+04
950.557, 1.135381e+04
951.262, 1.105750e+04
951.968, 1.078315e+04
952.676, 1.052891e+04
953.384, 1.029312e+04
954.094, 1.007422e+04
954.804, 9.870769e+03
955.516, 9.681478e+03
956.229, 9.505163e+03
956.942, 9.340750e+03
957.657, 9.187269e+03
958.373, 9.043839e+03
959.09, 8.909666e+03
959.808, 8.784030e+03
960.527, 8.666280e+03
961.247, 8.555827e+03
961.969, 8.452135e+03
962.691, 8.354721e+03
963.414, 8.263145e+03
964.139, 8.177007e+03
964.864, 8.095942e+03
965.591, 8.019620e+03
966.319, 7.947737e+03
967.048, 7.880018e+03
967.778, 7.816209e+03
968.509, 7.756080e+03
969.241, 7.699418e+03
969.974, 7.646027e+03
970.709, 7.595729e+03
971.444, 7.548360e+03
972.181, 7.503765e+03
972.919, 7.461806e+03
973.658, 7.422353e+03
974.398, 7.385285e+03
975.139, 7.350492e+03
975.881, 7.317870e+03
976.624, 7.287324e+03
977.369, 7.258766e+03
978.115, 7.232112e+03
978.861, 7.207287e+03
979.609, 7.184217e+03
980.359, 7.162838e+03
981.109, 7.143086e+03
981.86, 7.124903e+03
982.613, 7.108236e+03
983.366, 7.093033e+03
984.121, 7.079247e+03
984.877, 7.066835e+03
985.634, 7.055754e+03
986.393, 7.045965e+03
987.152, 7.037432e+03
987.913, 7.030121e+03
988.675, 7.024000e+03
989.438, 7.019040e+03
990.202, 7.015211e+03
990.967, 7.012488e+03
991.734, 7.010847e+03
992.502, 7.010263e+03
993.271, 7.010716e+03
994.041, 7.012185e+03
994.812, 7.014652e+03
995.585, 7.018099e+03
996.358, 7.022509e+03
997.133, 7.027867e+03
997.909, 7.034160e+03
998.687, 7.041373e+03
999.465, 7.049494e+03
1000.25, 7.058513e+03
1001.03, 7.068418e+03
1001.81, 7.079200e+03
1002.59, 7.090850e+03
1003.38, 7.103361e+03
1004.16, 7.116725e+03
1004.95, 7.130935e+03
1005.74, 7.145985e+03
1006.53, 7.161871e+03
1007.32, 7.178588e+03
1008.11, 7.196132e+03
1008.9, 7.214499e+03
1009.7, 7.233688e+03
1010.49, 7.253696e+03
1011.29, 7.274521e+03
1012.09, 7.296163e+03
1012.89, 7.318621e+03
1013.69, 7.341895e+03
1014.49, 7.365986e+03
1015.3, 7.390896e+03
1016.1, 7.416626e+03
1016.91, 7.443179e+03
1017.71, 7.470556e+03
1018.52, 7.498762e+03
1019.33, 7.527800e+03
1020.14, 7.557675e+03
1020.96, 7.588392e+03
1021.77, 7.619955e+03
1022.58, 7.652370e+03
1023.4, 7.685645e+03
1024.22, 7.719786e+03
1025.04, 7.754800e+03
1025.86, 7.790695e+03
1026.68, 7.827479e+03
1027.5, 7.865163e+03
1028.33, 7.903755e+03
1029.15, 7.943265e+03
1029.98, 7.983704e+03
1030.81, 8.025083e+03
1031.64, 8.067415e+03
1032.47, 8.110711e+03
1033.3, 8.154984e+03
1034.13, 8.200249e+03
1034.97, 8.246519e+03
1035.8, 8.293810e+03
1036.64, 8.342137e+03
1037.48, 8.391517e+03
1038.32, 8.441966e+03
1039.16, 8.493502e+03
1040, 8.546145e+03
1040.85, 8.599912e+03
1041.69, 8.654825e+03
1042.54, 8.710905e+03
1043.39, 8.768173e+03
1044.24, 8.826651e+03
1045.09, 8.886364e+03
1045.94, 8.947337e+03
1046.8, 9.009594e+03
1047.65, 9.073163e+03
1048.51, 9.138070e+03
1049.37, 9.204346e+03
1050.23, 9.272020e+03
1051.09, 9.341123e+03
1051.95, 9.411688e+03
1052.81, 9.483748e+03
1053.68, 9.557338e+03
1054.55, 9.632496e+03
1055.41, 9.709258e+03
1056.28, 9.787665e+03
1057.16, 9.867758e+03
1058.03, 9.949579e+03
1058.9, 1.003317e+04
1059.78, 1.011859e+04
1060.65, 1.020587e+04
1061.53, 1.029507e+04
1062.41, 1.038624e+04
1063.29, 1.047944e+04
1064.18, 1.057472e+04
1065.06, 1.067215e+04
1065.94, 1.077178e+04
1066.83, 1.087367e+04
1067.72, 1.097791e+04
1068.61, 1.108455e+04
1069.5, 1.119368e+04
1070.39, 1.130537e+04
1071.29, 1.141969e+04
1072.18, 1.153674e+04
1073.08, 1.165660e+04
1073.98, 1.177937e+04
1074.88, 1.190513e+04
1075.78, 1.203400e+04
1076.69, 1.216608e+04
1077.59, 1.230148e+04
1078.5, 1.244031e+04
1079.41, 1.258270e+04
1080.32, 1.272878e+04
1081.23, 1.287868e+04
1082.14, 1.303254e+04
1083.05, 1.319051e+04
1083.97, 1.335275e+04
1084.89, 1.351942e+04
1085.81, 1.369069e+04
1086.73, 1.386675e+04
1087.65, 1.404779e+04
1088.57, 1.423401e+04
1089.5, 1.442562e+04
1090.42, 1.462285e+04
1091.35, 1.482593e+04
1092.28, 1.503512e+04
1093.21, 1.525068e+04
1094.15, 1.547288e+04
1095.08, 1.570203e+04
1096.02, 1.593844e+04
1096.95, 1.618244e+04
1097.89, 1.643438e+04
1098.83, 1.669462e+04
1099.78, 1.696358e+04
1100.72, 1.724165e+04
1101.67, 1.752929e+04
1102.61, 1.782697e+04
1103.56, 1.813519e+04
1104.51, 1.845448e+04
1105.47, 1.878541e+04
1106.42, 1.912857e+04
1107.38, 1.948461e+04
1108.33, 1.985421e+04
1109.29, 2.023809e+04
1110.25, 2.063703e+04
1111.22, 2.105185e+04
1112.18, 2.148342e+04
1113.15, 2.193268e+04
1114.11, 2.240063e+04
1115.08, 2.288833e+04
1116.05, 2.339690e+04
1117.03, 2.392755e+04
1118, 2.448157e+04
1118.98, 2.506031e+04
1119.95, 2.566523e+04
1120.93, 2.629787e+04
1121.91, 2.695987e+04
1122.9, 2.765295e+04
1123.88, 2.837895e+04
1124.87, 2.913980e+04
1125.85, 2.993755e+04
1126.84, 3.077432e+04
1127.83, 3.165235e+04
1128.83, 3.257397e+04
1129.82, 3.354156e+04
1130.82, 3.455761e+04
1131.82, 3.562460e+04
1132.82, 3.674506e+04
1133.82, 3.792147e+04
1134.82, 3.915626e+04
1135.83, 4.045171e+04
1136.84, 4.180988e+04
1137.84, 4.323254e+04
1138.85, 4.472103e+04
1139.87, 4.627614e+04
1140.88, 4.789792e+04
1141.9, 4.958556e+04
1142.92, 5.133708e+04
1143.94, 5.314920e+04
1144.96, 5.501701e+04
1145.98, 5.693375e+04
1147.01, 5.889054e+04
1148.03, 6.087614e+04
1149.06, 6.287677e+04
1150.09, 6.487600e+04
1151.13, 6.685474e+04
1152.16, 6.879138e+04
1153.2, 7.066212e+04
1154.23, 7.244151e+04
1155.27, 7.410317e+04
1156.32, 7.562073e+04
1157.36, 7.696898e+04
1158.41, 7.812507e+04
1159.45, 7.906972e+04
1160.5, 7.978837e+04
1161.55, 8.027204e+04
1162.61, 8.051798e+04
1163.66, 8.052988e+04
1164.72, 8.031762e+04
1165.78, 7.989674e+04
1166.84, 7.928752e+04
1167.9, 7.851385e+04
1168.97, 7.760198e+04
1170.04, 7.657932e+04
1171.1, 7.547323e+04
1172.17, 7.431010e+04
1173.25, 7.311454e+04
1174.32, 7.190881e+04
1175.4, 7.071251e+04
1176.48, 6.954239e+04
1177.56, 6.841230e+04
1178.64, 6.733335e+04
1179.73, 6.631402e+04
1180.81, 6.536042e+04
1181.9, 6.447653e+04
1182.99, 6.366444e+04
1184.08, 6.292460e+04
1185.18, 6.225607e+04
1186.27, 6.165673e+04
1187.37, 6.112346e+04
1188.47, 6.065237e+04
1189.58, 6.023894e+04
1190.68, 5.987821e+04
1191.79, 5.956491e+04
1192.9, 5.929364e+04
1194.01, 5.905901e+04
1195.12, 5.885581e+04
1196.24, 5.867912e+04
1197.35, 5.852444e+04
1198.47, 5.838785e+04
1199.59, 5.826605e+04
1200.72, 5.815650e+04
1201.84, 5.805740e+04
1202.97, 5.796777e+04
1204.1, 5.788739e+04
1205.23, 5.781681e+04
1206.37, 5.775722e+04
1207.5, 5.771045e+04
1208.64, 5.767881e+04
1209.78, 5.766500e+04
1210.92, 5.767203e+04
1212.07, 5.770307e+04
1213.22, 5.776142e+04
1214.37, 5.785037e+04
1215.52, 5.797318e+04
1216.67, 5.813299e+04
1217.83, 5.833283e+04
1218.98, 5.857555e+04
1220.14, 5.886383e+04
1221.31, 5.920018e+04
1222.47, 5.958692e+04
1223.64, 6.002625e+04
1224.81, 6.052017e+04
1225.98, 6.107060e+04
1227.15, 6.167930e+04
1228.33, 6.234797e+04
1229.51, 6.307819e+04
1230.69, 6.387148e+04
1231.87, 6.472927e+04
1233.05, 6.565295e+04
1234.24, 6.664380e+04
1235.43, 6.770303e+04
1236.62, 6.883177e+04
1237.82, 7.003101e+04
1239.01, 7.130161e+04
1240.21, 7.264422e+04
1241.41, 7.405930e+04
1242.61, 7.554701e+04
1243.82, 7.710719e+04
1245.03, 7.873926e+04
1246.24, 8.044218e+04
1247.45, 8.221434e+04
1248.67, 8.405348e+04
1249.88, 8.595660e+04
1251.1, 8.791989e+04
1252.32, 8.993859e+04
1253.55, 9.200696e+04
1254.78, 9.411818e+04
1256.01, 9.626433e+04
1257.24, 9.843633e+04
1258.47, 1.006240e+05
1259.71, 1.028162e+05
1260.95, 1.050007e+05
1262.19, 1.071647e+05
1263.43, 1.092948e+05
1264.68, 1.113774e+05
1265.93, 1.133992e+05
1267.18, 1.153473e+05
1268.43, 1.172101e+05
1269.69, 1.189771e+05
1270.95, 1.206402e+05
1272.21, 1.221933e+05
1273.47, 1.236330e+05
1274.74, 1.249589e+05
1276.01, 1.261734e+05
1277.28, 1.272820e+05
1278.55, 1.282931e+05
1279.83, 1.292174e+05
1281.11, 1.300680e+05
1282.39, 1.308597e+05
1283.67, 1.316084e+05
1284.96, 1.323307e+05
1286.25, 1.330433e+05
1287.54, 1.337621e+05
1288.83, 1.345023e+05
1290.13, 1.352773e+05
1291.43, 1.360985e+05
1292.73, 1.369745e+05
1294.04, 1.379114e+05
1295.35, 1.389115e+05
1296.66, 1.399736e+05
1297.97, 1.410927e+05
1299.28, 1.422593e+05
1300.6, 1.434598e+05
1301.92, 1.446763e+05
1303.25, 1.458866e+05
1304.57, 1.470651e+05
1305.9, 1.481827e+05
1307.21, 1.491925e+05
1308.31, 1.499494e+05
1309.42, 1.506030e+05
1310.35, 1.510578e+05
1311.45, 1.514761e+05
1312.56, 1.517444e+05
1313.68, 1.518497e+05
1314.79, 1.517823e+05
1315.72, 1.515878e+05
1316.84, 1.511877e+05
1317.96, 1.506046e+05
1319.08, 1.498417e+05
1320.21, 1.489056e+05
1321.15, 1.479956e+05
1322.27, 1.467681e+05
1323.4, 1.454010e+05
1324.53, 1.439096e+05
1325.67, 1.423104e+05
1326.62, 1.409011e+05
1327.75, 1.391482e+05
1328.89, 1.373351e+05
1330.03, 1.354775e+05
1331.17, 1.335901e+05
1331.98, 1.322404e+05
1332.84, 1.308201e+05
1333.69, 1.293999e+05
1334.54, 1.279838e+05
1335.4, 1.265754e+05
1336.26, 1.251778e+05
1337.11, 1.237938e+05
1337.97, 1.224257e+05
1338.83, 1.210753e+05
1339.69, 1.197444e+05
1340.55, 1.184342e+05
1341.42, 1.171456e+05
1342.28, 1.158792e+05
1343.15, 1.146357e+05
1344.01, 1.134152e+05
1344.88, 1.122178e+05
1345.75, 1.110434e+05
1346.62, 1.098917e+05
1347.49, 1.087625e+05
1348.36, 1.076553e+05
1349.24, 1.065696e+05
1350.11, 1.055048e+05
1350.99, 1.044603e+05
1351.86, 1.034354e+05
1352.74, 1.024295e+05
1353.62, 1.014418e+05
1354.5, 1.004716e+05
1355.38, 9.951818e+04
1356.26, 9.858092e+04
1357.15, 9.765909e+04
1358.03, 9.675201e+04
1358.92, 9.585902e+04
1359.8, 9.497951e+04
1360.69, 9.411286e+04
1361.58, 9.325849e+04
1362.47, 9.241586e+04
1363.36, 9.158444e+04
1364.26, 9.076374e+04
1365.15, 8.995331e+04
1366.05, 8.915271e+04
1366.94, 8.836155e+04
1367.84, 8.757945e+04
1368.74, 8.680607e+04
1369.64, 8.604111e+04
1370.54, 8.528428e+04
1371.44, 8.453532e+04
1372.34, 8.379399e+04
1373.25, 8.306010e+04
1374.15, 8.233345e+04
1375.06, 8.161389e+04
1375.97, 8.090128e+04
1376.88, 8.019550e+04
1377.79, 7.949644e+04
1378.7, 7.880402e+04
1379.61, 7.811818e+04
1380.53, 7.743887e+04
1381.44, 7.676605e+04
1382.36, 7.609969e+04
1383.28, 7.543980e+04
1384.2, 7.478637e+04
1385.12, 7.413940e+04
1386.04, 7.349894e+04
1386.96, 7.286499e+04
1387.89, 7.223761e+04
1388.81, 7.161684e+04
1389.74, 7.100274e+04
1390.67, 7.039535e+04
1391.59, 6.979475e+04
1392.52, 6.920100e+04
1393.46, 6.861417e+04
1394.39, 6.803434e+04
1395.32, 6.746159e+04
1396.26, 6.689600e+04
1397.19, 6.633765e+04
1398.13, 6.578663e+04
1399.07, 6.524302e+04
1400.01, 6.470691e+04
1400.95, 6.417839e+04
1401.9, 6.365755e+04
1402.84, 6.314448e+04
1403.78, 6.263926e+04
1404.73, 6.214199e+04
1405.68, 6.165275e+04
1406.63, 6.117163e+04
1407.58, 6.069873e+04
1408.53, 6.023413e+04
1409.48, 5.977792e+04
1410.44, 5.933018e+04
1411.39, 5.889100e+04
1412.35, 5.846047e+04
1413.31, 5.803868e+04
1414.27, 5.762569e+04
1415.23, 5.722161e+04
1416.19, 5.682650e+04
1417.15, 5.644046e+04
1418.12, 5.606356e+04
1419.08, 5.569589e+04
1420.05, 5.533751e+04
1421.02, 5.498852e+04
1421.99, 5.464898e+04
1422.96, 5.431898e+04
1423.93, 5.399858e+04
1424.91, 5.368786e+04
1425.88, 5.338689e+04
1426.86, 5.309575e+04
1427.84, 5.281449e+04
1428.82, 5.254320e+04
1429.8, 5.228193e+04
1430.78, 5.203076e+04
1431.76, 5.178972e+04
1432.75, 5.155890e+04
1433.73, 5.133834e+04
1434.72, 5.112809e+04
1435.71, 5.092820e+04
1436.7, 5.073871e+04
1437.69, 5.055966e+04
1438.68, 5.039109e+04
1439.68, 5.023301e+04
1440.67, 5.008545e+04
1441.67, 4.994841e+04
1442.67, 4.982190e+04
1443.67, 4.970592e+04
1444.67, 4.960043e+04
1445.67, 4.950542e+04
1446.68, 4.942084e+04
1447.68, 4.934662e+04
1448.69, 4.928271e+04
1449.7, 4.922899e+04
1450.71, 4.918538e+04
1451.72, 4.915173e+04
1452.73, 4.912789e+04
1453.74, 4.911370e+04
1454.76, 4.910894e+04
1455.77, 4.911340e+04
1456.79, 4.912681e+04
1457.81, 4.914889e+04
1458.83, 4.917932e+04
1459.85, 4.921774e+04
1460.88, 4.926377e+04
1461.9, 4.931697e+04
1462.93, 4.937689e+04
1463.96, 4.944301e+04
1464.99, 4.951480e+04
1466.02, 4.959165e+04
1467.05, 4.967295e+04
1468.08, 4.975802e+04
1469.12, 4.984615e+04
1470.16, 4.993659e+04
1471.19, 5.002854e+04
1472.23, 5.012117e+04
1473.27, 5.021362e+04
1474.32, 5.030499e+04
1475.36, 5.039437e+04
1476.41, 5.048081e+04
1477.45, 5.056335e+04
1478.5, 5.064102e+04
1479.55, 5.071283e+04
1480.6, 5.077783e+04
1481.66, 5.083503e+04
1482.71, 5.088351e+04
1483.77, 5.092235e+04
1484.83, 5.095066e+04
1485.88, 5.096762e+04
1486.94, 5.097245e+04
1488.01, 5.096442e+04
1489.07, 5.094291e+04
1490.14, 5.090735e+04
1491.2, 5.085726e+04
1492.27, 5.079226e+04
1493.34, 5.071207e+04
1494.41, 5.061652e+04
1495.48, 5.050554e+04
1496.56, 5.037916e+04
1497.63, 5.023754e+04
1498.71, 5.008094e+04
1499.79, 4.990972e+04
1500.87, 4.972436e+04
1501.95, 4.952543e+04
1503.04, 4.931361e+04
1504.12, 4.908965e+04
1505.21, 4.885439e+04
1506.3, 4.860875e+04
1507.39, 4.835371e+04
1508.48, 4.809032e+04
1509.57, 4.781967e+04
1510.67, 4.754289e+04
1511.76, 4.726115e+04
1512.86, 4.697564e+04
1513.96, 4.668758e+04
1515.06, 4.639818e+04
1516.16, 4.610868e+04
1517.27, 4.582029e+04
1518.37, 4.553424e+04
1519.48, 4.525174e+04
1520.59, 4.497398e+04
1521.7, 4.470215e+04
1522.81, 4.443740e+04
1523.93, 4.418088e+04
1525.04, 4.393372e+04
1526.16, 4.369702e+04
1527.28, 4.347188e+04
1528.4, 4.325936e+04
1529.52, 4.306052e+04
1530.64, 4.287643e+04
1531.77, 4.270811e+04
1532.9, 4.255661e+04
1534.02, 4.242298e+04
1535.16, 4.230826e+04
1536.29, 4.221351e+04
1537.42, 4.213980e+04
1538.56, 4.208823e+04
1539.69, 4.205993e+04
1540.83, 4.205607e+04
1541.97, 4.207785e+04
1543.11, 4.212653e+04
1544.26, 4.220342e+04
1545.4, 4.230990e+04
1546.55, 4.244744e+04
1547.7, 4.261757e+04
1548.85, 4.282193e+04
1550, 4.306227e+04
1551.16, 4.334045e+04
1552.31, 4.365845e+04
1553.47, 4.401840e+04
1554.63, 4.442258e+04
1555.79, 4.487344e+04
1556.95, 4.537360e+04
1558.12, 4.592591e+04
1559.28, 4.653338e+04
1560.45, 4.719928e+04
1561.62, 4.792712e+04
1562.79, 4.872066e+04
1563.97, 4.958393e+04
1565.14, 5.052125e+04
1566.32, 5.153726e+04
1567.5, 5.263687e+04
1568.68, 5.382532e+04
1569.86, 5.510818e+04
1571.04, 5.649131e+04
1572.23, 5.798087e+04
1573.42, 5.958326e+04
1574.6, 6.130512e+04
1575.8, 6.315321e+04
1576.99, 6.513438e+04
1578.18, 6.725535e+04
1579.38, 6.952263e+04
1580.58, 7.194227e+04
1581.78, 7.451953e+04
1582.98, 7.725860e+04
1584.18, 8.016215e+04
1585.39, 8.323075e+04
1586.6, 8.646232e+04
1587.81, 8.985138e+04
1589.02, 9.338821e+04
1590.23, 9.705801e+04
1591.44, 1.008399e+05
1592.66, 1.047062e+05
1593.88, 1.086212e+05
1595.1, 1.125410e+05
1596.32, 1.164133e+05
1597.55, 1.201770e+05
1598.77, 1.237639e+05
1600, 1.270998e+05
1601.23, 1.301073e+05
1602.46, 1.327092e+05
1603.69, 1.348321e+05
1604.93, 1.364111e+05
1606.17, 1.373939e+05
1607.41, 1.377446e+05
1608.65, 1.374464e+05
1609.89, 1.365028e+05
1611.14, 1.349377e+05
1612.38, 1.327932e+05
1613.63, 1.301268e+05
1614.88, 1.270073e+05
1616.14, 1.235104e+05
1617.39, 1.197145e+05
1618.65, 1.156971e+05
1619.91, 1.115309e+05
1621.17, 1.072824e+05
1622.43, 1.030101e+05
1623.69, 9.876386e+04
1624.96, 9.458462e+04
1626.23, 9.050519e+04
1627.5, 8.655069e+04
1628.77, 8.273951e+04
1630.04, 7.908422e+04
1631.32, 7.559255e+04
1632.6, 7.226826e+04
1633.88, 6.911192e+04
1635.16, 6.612167e+04
1636.45, 6.329377e+04
1637.73, 6.062310e+04
1639.02, 5.810361e+04
1640.31, 5.572861e+04
1641.6, 5.349107e+04
1642.9, 5.138380e+04
1644.2, 4.939958e+04
1645.49, 4.753134e+04
1646.8, 4.577220e+04
1648.1, 4.411551e+04
1649.4, 4.255496e+04
1650.71, 4.108452e+04
1652.02, 3.969852e+04
1653.33, 3.839162e+04
1654.64, 3.715880e+04
1655.96, 3.599538e+04
1657.28, 3.489698e+04
1658.59, 3.385953e+04
1659.92, 3.287923e+04
1661.24, 3.195258e+04
1662.57, 3.107629e+04
1663.89, 3.024734e+04
1665.22, 2.946294e+04
1666.56, 2.872048e+04
1667.89, 2.801756e+04
1669.23, 2.735197e+04
1670.56, 2.672165e+04
1671.91, 2.612471e+04
1673.25, 2.555942e+04
1674.59, 2.502416e+04
1675.94, 2.451746e+04
1677.29, 2.403797e+04
1678.64, 2.358443e+04
1679.99, 2.315572e+04
1681.35, 2.275079e+04
1682.71, 2.236870e+04
1684.07, 2.200860e+04
1685.43, 2.166971e+04
1686.8, 2.135134e+04
1688.16, 2.105289e+04
1689.53, 2.077380e+04
1690.9, 2.051362e+04
1692.28, 2.027193e+04
1693.65, 2.004840e+04
1695.03, 1.984276e+04
1696.41, 1.965480e+04
1697.79, 1.948437e+04
1699.18, 1.933138e+04
1700.56, 1.919581e+04
1701.95, 1.907768e+04
1703.35, 1.897707e+04
1704.74, 1.889413e+04
1706.14, 1.882906e+04
1707.53, 1.878209e+04
1708.93, 1.875352e+04
1710.34, 1.874369e+04
1711.74, 1.875297e+04
1713.15, 1.878179e+04
1714.56, 1.883057e+04
1715.97, 1.889976e+04
1717.39, 1.898982e+04
1718.8, 1.910118e+04
1720.22, 1.923422e+04
1721.64, 1.938927e+04
1723.07, 1.956654e+04
1724.49, 1.976613e+04
1725.92, 1.998791e+04
1727.35, 2.023153e+04
1728.79, 2.049631e+04
1730.22, 2.078119e+04
1731.66, 2.108466e+04
1733.1, 2.140465e+04
1734.55, 2.173845e+04
1735.99, 2.208266e+04
1737.44, 2.243309e+04
1738.89, 2.278476e+04
1740.34, 2.313184e+04
1741.8, 2.346776e+04
1743.25, 2.378524e+04
1744.71, 2.407652e+04
1746.18, 2.433353e+04
1747.64, 2.454829e+04
1749.11, 2.471316e+04
1750.58, 2.482134e+04
1752.05, 2.486716e+04
1753.52, 2.484650e+04
1755, 2.475700e+04
1756.48, 2.459826e+04
1757.96, 2.437185e+04
1759.45, 2.408120e+04
1760.94, 2.373140e+04
1762.43, 2.332882e+04
1763.92, 2.288080e+04
1765.41, 2.239522e+04
1766.91, 2.188011e+04
1768.41, 2.134335e+04
1769.91, 2.079237e+04
1771.42, 2.023397e+04
1772.92, 1.967417e+04
1774.43, 1.911819e+04
1775.95, 1.857037e+04
1777.46, 1.803428e+04
1778.98, 1.751272e+04
1780.5, 1.700780e+04
1782.02, 1.652107e+04
1783.55, 1.605354e+04
1785.08, 1.560581e+04
1786.61, 1.517815e+04
1788.14, 1.477051e+04
1789.68, 1.438267e+04
1791.22, 1.401421e+04
1792.76, 1.366460e+04
1794.3, 1.333324e+04
1795.85, 1.301944e+04
1797.4, 1.272252e+04
1798.95, 1.244175e+04
1800.5, 1.217642e+04
1802.06, 1.192584e+04
1803.62, 1.168932e+04
1805.18, 1.146621e+04
1806.75, 1.125590e+04
1808.32, 1.105780e+04
1809.89, 1.087137e+04
1811.46, 1.069611e+04
1813.04, 1.053154e+04
1814.62, 1.037724e+04
1816.2, 1.023282e+04
1817.79, 1.009793e+04
1819.37, 9.972259e+03
1820.96, 9.855527e+03
1822.56, 9.747499e+03
1824.15, 9.647972e+03
1825.75, 9.556781e+03
1827.35, 9.473793e+03
1828.96, 9.398912e+03
1830.56, 9.332077e+03
1832.17, 9.273260e+03
1833.79, 9.222469e+03
1835.4, 9.179746e+03
1837.02, 9.145167e+03
1838.64, 9.118846e+03
1840.26, 9.100929e+03
1841.89, 9.091601e+03
1843.52, 9.091079e+03
1845.15, 9.099618e+03
1846.79, 9.117506e+03
1848.43, 9.145067e+03
1850.07, 9.182655e+03
1851.71, 9.230652e+03
1853.36, 9.289466e+03
1855.01, 9.359525e+03
1856.67, 9.441262e+03
1858.32, 9.535115e+03
1859.98, 9.641502e+03
1861.64, 9.760806e+03
1863.31, 9.893352e+03
1864.98, 1.003937e+04
1866.65, 1.019897e+04
1868.32, 1.037207e+04
1870, 1.055837e+04
1871.68, 1.075727e+04
1873.36, 1.096781e+04
1875.05, 1.118858e+04
1876.74, 1.141765e+04
1878.43, 1.165251e+04
1880.12, 1.188997e+04
1881.82, 1.212619e+04
1883.52, 1.235660e+04
1885.23, 1.257604e+04
1886.93, 1.277883e+04
1888.65, 1.295897e+04
1890.36, 1.311043e+04
1892.08, 1.322744e+04
1893.8, 1.330488e+04
1895.52, 1.333865e+04
1897.25, 1.332593e+04
1898.97, 1.326548e+04
1900.71, 1.315769e+04
1902.44, 1.300457e+04
1904.18, 1.280960e+04
1905.92, 1.257743e+04
1907.67, 1.231353e+04
1909.42, 1.202387e+04
1911.17, 1.171451e+04
1912.92, 1.139133e+04
1914.68, 1.105977e+04
1916.44, 1.072471e+04
1918.21, 1.039033e+04
1919.98, 1.006011e+04
1921.75, 9.736836e+03
1923.52, 9.422668e+03
1925.3, 9.119181e+03
1927.08, 8.827463e+03
1928.86, 8.548186e+03
1930.65, 8.281690e+03
1932.44, 8.028043e+03
1934.24, 7.787108e+03
1936.03, 7.558595e+03
1937.83, 7.342098e+03
1939.64, 7.137137e+03
1941.45, 6.943179e+03
1943.26, 6.759666e+03
1945.07, 6.586027e+03
1946.89, 6.421695e+03
1948.71, 6.266112e+03
1950.53, 6.118737e+03
1952.36, 5.979053e+03
1954.19, 5.846567e+03
1956.03, 5.720810e+03
1957.87, 5.601344e+03
1959.71, 5.487756e+03
1961.55, 5.379659e+03
1963.4, 5.276694e+03
1965.25, 5.178523e+03
1967.11, 5.084835e+03
1968.97, 4.995340e+03
1970.83, 4.909768e+03
1972.7, 4.827869e+03
1974.57, 4.749410e+03
1976.44, 4.674178e+03
1978.32, 4.601971e+03
1980.2, 4.532605e+03
1982.08, 4.465908e+03
1983.97, 4.401721e+03
1985.86, 4.339896e+03
1987.76, 4.280295e+03
1989.65, 4.222791e+03
1991.56, 4.167264e+03
1993.46, 4.113605e+03
1995.37, 4.061711e+03
1997.28, 4.011485e+03
1999.2, 3.962839e+03
2001.12, 3.915689e+03
2003.04, 3.869958e+03
2004.97, 3.825572e+03
2006.9, 3.782465e+03
2008.84, 3.740573e+03
2010.78, 3.699836e+03
2012.72, 3.660198e+03
2014.67, 3.621608e+03
2016.62, 3.584017e+03
2018.57, 3.547378e+03
2020.53, 3.511649e+03
2022.49, 3.476789e+03
2024.46, 3.442760e+03
2026.42, 3.409526e+03
2028.4, 3.377054e+03
2030.37, 3.345310e+03
2032.36, 3.314266e+03
2034.34, 3.283892e+03
2036.33, 3.254163e+03
2038.32, 3.225052e+03
2040.32, 3.196535e+03
2040.65, 3.191839e+03